1) Altitude (km) 			[Z]
2) Pressure (mb) 			[P]
3) Temperature (K) 			[T]
4) WaterVapor/Air Mixing Ratio (gm/kg)	[H2O]
5) Ozone/Air mixing ratio (gm/gm)	[O3]


@
Number of Gases: 2,
@
Number of Layers: 63,
@
        Z          P          T        H2O          O3
@


       0.000     1013.000      300.000    1.620e+01    4.770e-08
       0.498      956.900      297.000    1.390e+01    4.990e-08
       0.990      904.000      294.100    1.220e+01    5.230e-08
       1.486      853.100      291.100    1.070e+01    5.400e-08
       1.978      805.000      288.400    9.570e+00    5.560e-08
       2.476      758.700      286.000    7.350e+00    5.690e-08
       2.970      715.000      283.600    5.360e+00    5.820e-08
       3.473      672.800      280.700    4.152e+00    5.880e-08
       3.971      633.000      277.400    3.348e+00    5.930e-08
       4.472      594.900      274.000    2.681e+00    6.090e-08
       4.968      559.000      270.700    2.129e+00    6.270e-08
       5.471      524.400      267.300    1.680e+00    6.450e-08
       5.967      492.000      264.000    1.330e+00    6.630e-08
       6.466      461.000      260.600    1.040e+00    6.830e-08
       6.959      432.000      257.300    8.052e-01    7.020e-08
       7.458      404.100      253.900    6.202e-01    7.230e-08
       7.951      378.000      250.600    4.761e-01    7.440e-08
       8.458      352.600      247.200    3.601e-01    7.860e-08
       8.956      329.000      243.800    2.569e-01    8.310e-08
       9.453      306.700      240.500    1.750e-01    8.790e-08
       9.942      286.000      237.200    1.169e-01    9.290e-08
      10.446      265.800      233.800    7.569e-02    1.010e-07
      10.945      247.000      230.400    4.806e-02    1.100e-07
      11.440      229.400      227.100    3.000e-02    1.190e-07
      11.929      213.000      223.800    1.838e-02    1.300e-07
      12.440      196.900      220.300    1.071e-02    1.420e-07
      12.943      182.000      216.900    6.140e-03    1.540e-07
      13.429      168.500      213.700    4.200e-03    1.640e-07
      13.907      156.000      210.400    3.820e-03    1.740e-07
      14.417      143.500      207.000    3.540e-03    1.910e-07
      14.919      132.000      203.600    3.350e-03    2.080e-07
      15.434      121.000      200.200    3.260e-03    2.230e-07
      15.935      111.000      196.800    3.240e-03    2.420e-07
      16.419      102.000      194.600    3.270e-03    3.190e-07
      16.904       93.700      195.600    3.270e-03    4.140e-07
      17.398       85.980      197.500    3.270e-03    5.240e-07
      17.897       78.900      199.500    3.270e-03    6.540e-07
      18.395       72.490      201.600    3.270e-03    9.190e-07
      18.897       66.600      203.600    3.270e-03    1.230e-06
      19.390       61.340      205.600    3.270e-03    1.590e-06
      19.887       56.500      207.600    3.270e-03    2.010e-06
      20.384       52.080      209.600    3.270e-03    2.490e-06
      20.887       48.000      211.600    3.270e-03    3.050e-06
      21.384       44.310      213.300    3.270e-03    3.610e-06
      21.886       40.900      214.700    3.270e-03    4.240e-06
      22.376       37.840      215.800    3.270e-03    4.930e-06
      22.870       35.000      216.900    3.270e-03    5.700e-06
      23.361       32.400      218.000    3.270e-03    6.380e-06
      23.853       30.000      219.100    3.270e-03    7.130e-06
      24.350       27.770      220.200    3.270e-03    7.750e-06
      24.851       25.700      221.300    3.270e-03    8.400e-06
      27.292       17.710      226.700    3.270e-03    1.070e-05
      29.795       12.200      232.300    3.270e-03    1.310e-05
      32.235        8.556      237.700    3.270e-03    1.330e-05
      34.733        6.000      243.300    3.270e-03    1.070e-05
      37.169        4.278      248.700    3.270e-03    1.110e-05
      39.659        3.050      254.300    3.270e-03    9.800e-06
      42.110        2.202      259.800    3.270e-03    9.140e-06
      44.610        1.590      264.900    3.270e-03    6.180e-06
      47.035        1.165      267.800    3.270e-03    5.690e-06
      49.479        0.854      270.000    3.270e-03    3.910e-06
      59.617        0.222      244.900    3.270e-03    6.680e-06
      68.760        0.058      219.400    3.270e-03    1.570e-06
